Folder: FEHM/fehmpytests/sptr_btc

Note: fehmpytests/README.md
## Fehmpytests python driven test suite for FEHM ##

Fehmpytests is a new test suite driver for FEHM. The goal is to enable FEHM developers to easily test new code and add new tests 
for existing or future functionality.  
There are about twenty tests that Fehmpytests performs through a command line interface. 
Future plans are to integrate it into the FEHM build process and provide more modularity by improving the developer interface. 

[See Fehmpytests Documentation](http://lanl.github.io/FEHM/fehmpytests/html/index.html)


Note the full FEHM Test Suite is written using perl scripts with over 60 test cases and takes a few hours to run. A compressed archive of the full FEHM Test Suite is available under the releases tab.

File: box.mat_node.dat
TITLE = "FEHM3.6_VER2                   04/18/2024  15:11:25 Unsaturated Diffusion tests"
VARIABLES =  "X coordinate (m)" "Y coordinate (m)" "node" "Permeability (m**2) in X" "Permeability (m**2) in Y" "Thermal Conductivity (W/m*K) in X" "Thermal Conductivity (W/m*K) in Y" "Porosity" "Rock bulk density (kg/m**3)" "Rock specific heat (MJ/kg*K)" "Capillary pressure (MPa)" "Relative permeability model" "Capillary pressure model"
ZONE T = "Material properties", N =       12, E =        5, DATAPACKING = POINT, ZONETYPE = FEQUADRILATERAL
   0.00000000    0.00000000  0000000001   1e-12   1e-12   10   10   10      0.800000         1000.000         1.000000E-03      0.00000                1                1
  1    0.00000000  0000000002   1e-12   1e-12   10   10   10      0.800000         1000.000         1.000000E-03      0.00000                1                1
   0.00000000   0.2  0000000003   1e-12   1e-12   10   10   10      0.800000         1000.000         1.000000E-03      0.00000                1                1
  1   0.2  0000000004   1e-12   1e-12   10   10   10      0.800000         1000.000         1.000000E-03      0.00000                1                1
   0.00000000   0.4  0000000005   1e-12   1e-12   10   10   10      0.800000         1000.000         1.000000E-03      0.00000                1                1
  1   0.4  0000000006   1e-12   1e-12   10   10   10      0.800000         1000.000         1.000000E-03      0.00000                1                1
   0.00000000   0.6  0000000007   1e-12   1e-12   10   10   10      0.800000         1000.000         1.000000E-03      0.00000                1                1
  1   0.6  0000000008   1e-12   1e-12   10   10   10      0.800000         1000.000         1.000000E-03      0.00000                1                1
   0.00000000   0.8  0000000009   1e-12   1e-12   10   10   10      0.800000         1000.000         1.000000E-03      0.00000                1                1
  1   0.8  0000000010   1e-12   1e-12   10   10   10      0.800000         1000.000         1.000000E-03      0.00000                1                1
   0.00000000   1  0000000011   1e-12   1e-12   10   10   10      0.800000         1000.000         1.000000E-03      0.00000                1                1
  1   1  0000000012   1e-12   1e-12   10   10   10      0.800000         1000.000         1.000000E-03      0.00000                1                1
       1       2       4       3
       3       4       6       5
       5       6       8       7
       7       8      10       9
       9      10      12      11